Folder: B/old/ueberstruktur/Auswertung/roentgenografische methode daten

File: probe1.UXD
; C:\Data\Froehlich\Praktikum\2016-02-09_ignatiev\probe1.raw(Diffrac Plus V1.01 file) converted by XCH V1.0
_FILEVERSION=2
_SAMPLE='Probe1'
_SITE='II. Physikalisches Institut'
_ATTACHMENTS_CODE=0
_GONIOMETER_RADIUS=200.5
_FIXED_DIVSLIT=2.000000
_FIXED_SAMPLESLIT=1.000000
_FIXED_DETSLIT=0.200000
_MONOCHROMATOR=0
; None
_THIN_FILM='N'
_BETA_FILTER='Y'
_FIXED_ANTISLIT=2.000000
_ANALYZER_CODE=0
; None
_DATEMEASURED='09-Feb-2016 18:08:43'
_WL_UNIT='A'
_WL1=1.540590
_WL2=1.544430
_WL3=1.392230
_WLRATIO=0.520000
_ANODE='Cu'
; (Data for Range number 1)
_DRIVE='COUPLED'
_STEPTIME=2.000000
_STEPSIZE=0.022000
_STEPMODE='C'
_START=12
_THETA=6.000000
_2THETA=12
_KHI=0.000000
_PHI=0.000000
_X=0.000000
_Y=0.000000
_Z=0.000000
_DIVERGENCE=0.000000
_ANTISCATTER=0.000000
_DETECTOR=1
; S.C.
_HV=1000
_GAIN=80
_LLD=0.550000
_ULD=1.310000
_DETECTORSLIT='unkn'
_AUX1=0.000000
_AUX2=0.000000
_AUX3=0.000000
_TIMESTARTED=18
_ROTATION_SPEED=120
_TEMP_RATE=-1.000000
_TEMP_DELAY=-1.000000
_KV=40
_MA=40
_RANGE_WL=1.540590
_3DPLANE=0
_2THETACOUNTS
  12.0000       302
  12.3740       290
  12.7480       309
  13.1220       271
  13.4960       268
  13.8700       299
  14.2440       312
  14.6180       286
  14.9920       280
  15.3660       288
  15.7400       305
  16.1140       266
  16.4880       304
  16.8620       312
  17.2360       282
  17.6100       342
  17.9840       324
  18.3580       383
  18.7320       314
  19.1060       332
  19.4800       377
  19.8540       386
  20.2280       346
  20.6020       382
  20.9760       423
  21.3500       421
  21.7240       406
  22.0980       437
  22.4720       447
  22.8460       423
  23.2200       431
  23.5940       433
  23.9680       460
  24.3420       465
  24.7160       445
  25.0900       465
  25.4640       431
  25.8380       476
  26.2120       452
  26.5860       461
  26.9600       460
  27.3340       458
  27.7080       496
  28.0820       433
  28.4560       384
  28.8300       411
  29.2040       455
  29.5780       455
  29.9520       407
  30.3260       430
  30.7000       410
  31.0740       407
  31.4480       405
  31.8220       416
  32.1960       401
  32.5700       436
  32.9440       435
  33.3180       394
  33.6920       366
  34.0660       412
  34.4400       449
  34.8140       395
  35.1880       385
  35.5620       385
  35.9360       385
  36.3100       421
  36.6840       401
  37.0580       367
  37.4320       440
  37.8060       427
  38.1800       437
  38.5540       397
  38.9280       383
  39.3020       389
  39.6760       401
  40.0500       401
  40.4240       429
  40.7980       436
  41.1720       490
  41.5460      1021
  41.9200      3923
  42.2940       822
  42.6680       492
  43.0420       402
  43.4160       373
  43.7900       413
  44.1640       417
  44.5380       394
  44.9120       391
  45.2860       381
  45.6600       397
  46.0340       414
  46.4080       417
  46.7820       420
  47.1560       422
  47.5300       467
  47.9040       536
  48.2780      1063
  48.6520      2512
  49.0260      1027
  49.4000       565
  49.7740       446
  50.1480       420
  50.5220       436
  50.8960       440
  51.2700       411
  51.6440       382
  52.0180       386
  52.3920       396
  52.7660       395
  53.1400       364
  53.5140       374
  53.8880       432
  54.2620       380
  54.6360       373
  55.0100       408
  55.3840       396
  55.7580       401
  56.1320       398
  56.5060       386
  56.8800       399
  57.2540       382
  57.6280       390
  58.0020       413
  58.3760       396
  58.7500       422
  59.1240       380
  59.4980       383
  59.8720       420
  60.2460       389
  60.6200       391
  60.9940       400
  61.3680       429
  61.7420       439
  62.1160       398
  62.4900       422
  62.8640       407
  63.2380       417
  63.6120       447
  63.9860       407
  64.3600       427
  64.7340       456
  65.1080       446
  65.4820       435
  65.8560       369
  66.2300       453
  66.6040       418
  66.9780       400
  67.3520       401
  67.7260       454
  68.1000       439
  68.4740       444
  68.8480       428
  69.2220       398
  69.5960       472
  69.9700       408
  70.3440       473
  70.7180       526
  71.0920       934
  71.4660       817
  71.8400       483
  72.2140       434
  72.5880       451
  72.9620       439
  73.3360       391
  73.7100       444
  74.0840       415
  74.4580       400
  74.8320       414
  75.2060       437
  75.5800       443
  75.9540       388
  76.3280       435
  76.7020       428
  77.0760       418
  77.4500       426
  77.8240       421
  78.1980       455
  78.5720       450
  78.9460       404
  79.3200       430
  79.6940       394
  80.0680       397
  80.4420       443
  80.8160       420
  81.1900       425
  81.5640       431
  81.9380       446
  82.3120       448
  82.6860       408
  83.0600       442
  83.4340       442
  83.8080       446
  84.1820       448
  84.5560       487
  84.9300       464
  85.3040       548
  85.6780       780
  86.0520      1055
  86.4260       798
  86.8000       535
  87.1740       448
  87.5480       433
  87.9220       428
  88.2960       469
  88.6700       430
  89.0440       472
  89.4180       423
  89.7920       404
  90.1660       482
  90.5400       511
  90.9140       652
  91.2880       552
  91.6620       461
  92.0360       419
  92.4100       403
  92.7840       418
  93.1580       450
  93.5320       415
  93.9060       431
  94.2800       413
  94.6540       439
  95.0280       400
  95.4020       405
  95.7760       393
  96.1500       404
  96.5240       423
  96.8980       405
  97.2720       476
  97.6460       421
  98.0200       403
  98.3940       457
  98.7680       436
  99.1420       435
  99.5160       443
  99.8900       420
 100.2640       430
 100.6380       449
 101.0120       443
 101.3860       432
 101.7600       446
 102.1340       461
 102.5080       452
 102.8820       432
 103.2560       407
 103.6300       417
 104.0040       424
 104.3780       440
 104.7520       468
 105.1260       477
 105.5000       432
 105.8740       431
 106.2480       461
 106.6220       422
 106.9960       436
 107.3700       457
 107.7440       405
 108.1180       442
 108.4920       427
 108.8660       423
 109.2400       469
 109.6140       471
 109.9880       531
 110.3620       556
 110.7360       535
 111.1100       559
 111.4840       502
 111.8580       482
 112.2320       436
 112.6060       456
 112.9800       477
 113.3540       448
 113.7280       437
 114.1020       479
 114.4760       460
 114.8500       440
 115.2240       467
 115.5980       449
 115.9720       447
 116.3460       442
 116.7200       452
 117.0940       459
 117.4680       466
 117.8420       456
 118.2160       442
 118.5900       434
 118.9640       446
 119.3380       449
 119.7120       445
 120.0860       459
 120.4600       480
 120.8340       467
 121.2080       467
 121.5820       434
 121.9560       459
 122.0000       465

File: probe2.UXD
; C:\Data\Froehlich\Praktikum\2016-02-09_ignatiev\probe2.raw(Diffrac Plus V1.01 file) converted by XCH V1.0
_FILEVERSION=2
_SAMPLE='Probe2'
_SITE='II. Physikalisches Institut'
_ATTACHMENTS_CODE=0
_GONIOMETER_RADIUS=200.5
_FIXED_DIVSLIT=2.000000
_FIXED_SAMPLESLIT=1.000000
_FIXED_DETSLIT=0.200000
_MONOCHROMATOR=0
; None
_THIN_FILM='N'
_BETA_FILTER='Y'
_FIXED_ANTISLIT=2.000000
_ANALYZER_CODE=0
; None
_DATEMEASURED='09-Feb-2016 20:56:04'
_WL_UNIT='A'
_WL1=1.540590
_WL2=1.544430
_WL3=1.392230
_WLRATIO=0.520000
_ANODE='Cu'
; (Data for Range number 1)
_DRIVE='COUPLED'
_STEPTIME=2.000000
_STEPSIZE=0.022000
_STEPMODE='C'
_START=12
_THETA=6.000000
_2THETA=12
_KHI=0.000000
_PHI=0.000000
_X=0.000000
_Y=0.000000
_Z=0.000000
_DIVERGENCE=0.000000
_ANTISCATTER=0.000000
_DETECTOR=1
; S.C.
_HV=1000
_GAIN=80
_LLD=0.550000
_ULD=1.310000
_DETECTORSLIT='unkn'
_AUX1=0.000000
_AUX2=0.000000
_AUX3=0.000000
_TIMESTARTED=13
_ROTATION_SPEED=120
_TEMP_RATE=-1.000000
_TEMP_DELAY=-1.000000
_KV=40
_MA=40
_RANGE_WL=1.540590
_3DPLANE=0
_2THETACOUNTS
  12.0000       233
  12.3740       242
  12.7480       211
  13.1220       232
  13.4960       226
  13.8700       254
  14.2440       262
  14.6180       230
  14.9920       244
  15.3660       249
  15.7400       234
  16.1140       275
  16.4880       270
  16.8620       300
  17.2360       288
  17.6100       276
  17.9840       306
  18.3580       297
  18.7320       318
  19.1060       307
  19.4800       309
  19.8540       302
  20.2280       306
  20.6020       336
  20.9760       365
  21.3500       372
  21.7240       343
  22.0980       364
  22.4720       386
  22.8460       430
  23.2200       405
  23.5940       563
  23.9680       466
  24.3420       431
  24.7160       409
  25.0900       393
  25.4640       380
  25.8380       370
  26.2120       376
  26.5860       404
  26.9600       405
  27.3340       370
  27.7080       370
  28.0820       363
  28.4560       383
  28.8300       356
  29.2040       382
  29.5780       401
  29.9520       391
  30.3260       401
  30.7000       393
  31.0740       381
  31.4480       408
  31.8220       342
  32.1960       380
  32.5700       377
  32.9440       386
  33.3180       442
  33.6920       475
  34.0660       431
  34.4400       375
  34.8140       348
  35.1880       397
  35.5620       369
  35.9360       361
  36.3100       328
  36.6840       381
  37.0580       357
  37.4320       443
  37.8060       420
  38.1800       408
  38.5540       424
  38.9280       370
  39.3020       379
  39.6760       399
  40.0500       386
  40.4240       462
  40.7980       516
  41.1720       981
  41.5460      3946
  41.9200       971
  42.2940       437
  42.6680       408
  43.0420       411
  43.4160       478
  43.7900       419
  44.1640       397
  44.5380       427
  44.9120       412
  45.2860       359
  45.6600       391
  46.0340       391
  46.4080       407
  46.7820       446
  47.1560       461
  47.5300       570
  47.9040       984
  48.2780      2663
  48.6520      1545
  49.0260       555
  49.4000       437
  49.7740       415
  50.1480       385
  50.5220       368
  50.8960       390
  51.2700       394
  51.6440       394
  52.0180       421
  52.3920       394
  52.7660       368
  53.1400       418
  53.5140       369
  53.8880       375
  54.2620       438
  54.6360       487
  55.0100       437
  55.3840       449
  55.7580       396
  56.1320       417
  56.5060       395
  56.8800       374
  57.2540       379
  57.6280       420
  58.0020       421
  58.3760       423
  58.7500       383
  59.1240       390
  59.4980       414
  59.8720       465
  60.2460       464
  60.6200       422
  60.9940       432
  61.3680       417
  61.7420       426
  62.1160       423
  62.4900       408
  62.8640       415
  63.2380       407
  63.6120       398
  63.9860       425
  64.3600       458
  64.7340       388
  65.1080       440
  65.4820       371
  65.8560       412
  66.2300       375
  66.6040       414
  66.9780       373
  67.3520       408
  67.7260       400
  68.1000       420
  68.4740       422
  68.8480       408
  69.2220       403
  69.5960       426
  69.9700       456
  70.3440       530
  70.7180       755
  71.0920       993
  71.4660       597
  71.8400       437
  72.2140       430
  72.5880       383
  72.9620       425
  73.3360       425
  73.7100       431
  74.0840       390
  74.4580       416
  74.8320       380
  75.2060       409
  75.5800       465
  75.9540       470
  76.3280       423
  76.7020       464
  77.0760       426
  77.4500       421
  77.8240       407
  78.1980       398
  78.5720       403
  78.9460       414
  79.3200       420
  79.6940       453
  80.0680       448
  80.4420       408
  80.8160       473
  81.1900       453
  81.5640       453
  81.9380       427
  82.3120       490
  82.6860       398
  83.0600       412
  83.4340       467
  83.8080       391
  84.1820       438
  84.5560       445
  84.9300       545
  85.3040       585
  85.6780       968
  86.0520       898
  86.4260       586
  86.8000       509
  87.1740       427
  87.5480       412
  87.9220       395
  88.2960       409
  88.6700       439
  89.0440       432
  89.4180       376
  89.7920       446
  90.1660       476
  90.5400       572
  90.9140       589
  91.2880       506
  91.6620       414
  92.0360       416
  92.4100       433
  92.7840       422
  93.1580       369
  93.5320       396
  93.9060       402
  94.2800       405
  94.6540       377
  95.0280       392
  95.4020       447
  95.7760       464
  96.1500       463
  96.5240       414
  96.8980       407
  97.2720       407
  97.6460       421
  98.0200       403
  98.3940       424
  98.7680       462
  99.1420       447
  99.5160       432
  99.8900       423
 100.2640       453
 100.6380       432
 101.0120       450
 101.3860       431
 101.7600       430
 102.1340       405
 102.5080       408
 102.8820       408
 103.2560       406
 103.6300       405
 104.0040       437
 104.3780       431
 104.7520       420
 105.1260       371
 105.5000       420
 105.8740       413
 106.2480       442
 106.6220       452
 106.9960       452
 107.3700       465
 107.7440       448
 108.1180       410
 108.4920       452
 108.8660       461
 109.2400       455
 109.6140       484
 109.9880       507
 110.3620       571
 110.7360       504
 111.1100       471
 111.4840       451
 111.8580       448
 112.2320       448
 112.6060       437
 112.9800       409
 113.3540       434
 113.7280       436
 114.1020       444
 114.4760       445
 114.8500       433
 115.2240       462
 115.5980       497
 115.9720       475
 116.3460       485
 116.7200       455
 117.0940       438
 117.4680       466
 117.8420       453
 118.2160       447
 118.5900       435
 118.9640       458
 119.3380       457
 119.7120       426
 120.0860       430
 120.4600       471
 120.8340       481
 121.2080       420
 121.5820       500
 121.9560       480
 122.0000       442

File: probe3.UXD
; C:\Data\Froehlich\Praktikum\2016-02-09_ignatiev\probe3.raw(Diffrac Plus V1.01 file) converted by XCH V1.0
_FILEVERSION=2
_SAMPLE='Probe3'
_SITE='II. Physikalisches Institut'
_ATTACHMENTS_CODE=0
_GONIOMETER_RADIUS=200.5
_FIXED_DIVSLIT=2.000000
_FIXED_SAMPLESLIT=1.000000
_FIXED_DETSLIT=0.200000
_MONOCHROMATOR=0
; None
_THIN_FILM='N'
_BETA_FILTER='Y'
_FIXED_ANTISLIT=2.000000
_ANALYZER_CODE=0
; None
_DATEMEASURED='09-Feb-2016 23:43:25'
_WL_UNIT='A'
_WL1=1.540590
_WL2=1.544430
_WL3=1.392230
_WLRATIO=0.520000
_ANODE='Cu'
; (Data for Range number 1)
_DRIVE='COUPLED'
_STEPTIME=2.000000
_STEPSIZE=0.022000
_STEPMODE='C'
_START=12
_THETA=6.000000
_2THETA=12
_KHI=0.000000
_PHI=0.000000
_X=0.000000
_Y=0.000000
_Z=0.000000
_DIVERGENCE=0.000000
_ANTISCATTER=0.000000
_DETECTOR=1
; S.C.
_HV=1000
_GAIN=80
_LLD=0.550000
_ULD=1.310000
_DETECTORSLIT='unkn'
_AUX1=0.000000
_AUX2=0.000000
_AUX3=0.000000
_TIMESTARTED=13
_ROTATION_SPEED=120
_TEMP_RATE=-1.000000
_TEMP_DELAY=-1.000000
_KV=40
_MA=40
_RANGE_WL=1.540590
_3DPLANE=0
_2THETACOUNTS
  12.0000       216
  12.3740       249
  12.7480       244
  13.1220       254
  13.4960       248
  13.8700       243
  14.2440       239
  14.6180       281
  14.9920       237
  15.3660       245
  15.7400       274
  16.1140       229
  16.4880       264
  16.8620       275
  17.2360       268
  17.6100       294
  17.9840       274
  18.3580       277
  18.7320       298
  19.1060       308
  19.4800       355
  19.8540       312
  20.2280       330
  20.6020       339
  20.9760       377
  21.3500       384
  21.7240       386
  22.0980       383
  22.4720       340
  22.8460       362
  23.2200       362
  23.5940       412
  23.9680       393
  24.3420       396
  24.7160       355
  25.0900       356
  25.4640       345
  25.8380       329
  26.2120       366
  26.5860       380
  26.9600       370
  27.3340       328
  27.7080       330
  28.0820       333
  28.4560       314
  28.8300       303
  29.2040       293
  29.5780       291
  29.9520       327
  30.3260       339
  30.7000       310
  31.0740       335
  31.4480       307
  31.8220       347
  32.1960       286
  32.5700       289
  32.9440       312
  33.3180       320
  33.6920       360
  34.0660       310
  34.4400       270
  34.8140       241
  35.1880       260
  35.5620       259
  35.9360       244
  36.3100       246
  36.6840       253
  37.0580       251
  37.4320       253
  37.8060       259
  38.1800       252
  38.5540       248
  38.9280       269
  39.3020       229
  39.6760       230
  40.0500       262
  40.4240       246
  40.7980       286
  41.1720       289
  41.5460       564
  41.9200      1637
  42.2940       377
  42.6680       276
  43.0420       245
  43.4160       229
  43.7900       267
  44.1640       210
  44.5380       248
  44.9120       233
  45.2860       246
  45.6600       248
  46.0340       257
  46.4080       216
  46.7820       253
  47.1560       253
  47.5300       234
  47.9040       306
  48.2780       595
  48.6520       829
  49.0260       411
  49.4000       261
  49.7740       252
  50.1480       250
  50.5220       231
  50.8960       220
  51.2700       189
  51.6440       233
  52.0180       234
  52.3920       235
  52.7660       234
  53.1400       240
  53.5140       218
  53.8880       236
  54.2620       232
  54.6360       282
  55.0100       282
  55.3840       233
  55.7580       251
  56.1320       194
  56.5060       216
  56.8800       238
  57.2540       243
  57.6280       225
  58.0020       242
  58.3760       233
  58.7500       239
  59.1240       241
  59.4980       219
  59.8720       258
  60.2460       245
  60.6200       258
  60.9940       258
  61.3680       244
  61.7420       240
  62.1160       267
  62.4900       250
  62.8640       240
  63.2380       217
  63.6120       249
  63.9860       233
  64.3600       234
  64.7340       269
  65.1080       228
  65.4820       250
  65.8560       243
  66.2300       231
  66.6040       237
  66.9780       238
  67.3520       250
  67.7260       248
  68.1000       175
  68.4740       246
  68.8480       241
  69.2220       251
  69.5960       220
  69.9700       246
  70.3440       242
  70.7180       269
  71.0920       468
  71.4660       358
  71.8400       259
  72.2140       240
  72.5880       240
  72.9620       258
  73.3360       245
  73.7100       235
  74.0840       200
  74.4580       229
  74.8320       208
  75.2060       233
  75.5800       218
  75.9540       206
  76.3280       251
  76.7020       255
  77.0760       223
  77.4500       218
  77.8240       220
  78.1980       258
  78.5720       233
  78.9460       233
  79.3200       219
  79.6940       214
  80.0680       228
  80.4420       231
  80.8160       253
  81.1900       243
  81.5640       248
  81.9380       232
  82.3120       215
  82.6860       207
  83.0600       251
  83.4340       226
  83.8080       234
  84.1820       211
  84.5560       261
  84.9300       279
  85.3040       321
  85.6780       406
  86.0520       485
  86.4260       360
  86.8000       264
  87.1740       206
  87.5480       227
  87.9220       233
  88.2960       224
  88.6700       202
  89.0440       235
  89.4180       216
  89.7920       225
  90.1660       258
  90.5400       288
  90.9140       290
  91.2880       258
  91.6620       220
  92.0360       230
  92.4100       225
  92.7840       235
  93.1580       215
  93.5320       205
  93.9060       235
  94.2800       230
  94.6540       220
  95.0280       225
  95.4020       231
  95.7760       254
  96.1500       228
  96.5240       244
  96.8980       212
  97.2720       222
  97.6460       244
  98.0200       240
  98.3940       213
  98.7680       243
  99.1420       236
  99.5160       216
  99.8900       230
 100.2640       216
 100.6380       231
 101.0120       280
 101.3860       249
 101.7600       216
 102.1340       227
 102.5080       216
 102.8820       206
 103.2560       236
 103.6300       237
 104.0040       222
 104.3780       213
 104.7520       232
 105.1260       206
 105.5000       218
 105.8740       239
 106.2480       219
 106.6220       229
 106.9960       204
 107.3700       206
 107.7440       241
 108.1180       232
 108.4920       235
 108.8660       249
 109.2400       234
 109.6140       234
 109.9880       251
 110.3620       244
 110.7360       257
 111.1100       243
 111.4840       266
 111.8580       203
 112.2320       198
 112.6060       232
 112.9800       233
 113.3540       247
 113.7280       245
 114.1020       248
 114.4760       247
 114.8500       238
 115.2240       242
 115.5980       249
 115.9720       243
 116.3460       263
 116.7200       251
 117.0940       234
 117.4680       271
 117.8420       254
 118.2160       268
 118.5900       240
 118.9640       254
 119.3380       245
 119.7120       237
 120.0860       276
 120.4600       258
 120.8340       252
 121.2080       268
 121.5820       284
 121.9560       291
 122.0000       265