Folder: B/old/ueberstruktur/Ueberstruktur (2)/faber

Note: old/ueberstruktur/Ueberstruktur (2)/faber/interpolation.txt
linear 2 und 3 x=[4,30]
linear 1,3 x=[4,20]

File: probe1.UXD
; C:\Data\Froehlich\Praktikum\faber\probe1.raw(Diffrac Plus V1.01 file) converted by XCH V1.0
_FILEVERSION=2
_SAMPLE='probe1'
_SITE='II. Physikalisches Institut'
_ATTACHMENTS_CODE=0
_GONIOMETER_RADIUS=200.5
_FIXED_DIVSLIT=2.000000
_FIXED_SAMPLESLIT=1.000000
_FIXED_DETSLIT=0.200000
_MONOCHROMATOR=0
; None
_THIN_FILM='N'
_BETA_FILTER='Y'
_FIXED_ANTISLIT=2.000000
_ANALYZER_CODE=0
; None
_DATEMEASURED='14-Nov-2015 01:56:36'
_WL_UNIT='A'
_WL1=1.540590
_WL2=1.544430
_WL3=1.392230
_WLRATIO=0.520000
_ANODE='Cu'
; (Data for Range number 1)
_DRIVE='COUPLED'
_STEPTIME=2.000000
_STEPSIZE=0.022000
_STEPMODE='C'
_START=12
_THETA=6.000000
_2THETA=12
_KHI=0.000000
_PHI=0.000000
_X=0.000000
_Y=0.000000
_Z=0.000000
_DIVERGENCE=0.000000
_ANTISCATTER=0.000000
_DETECTOR=1
; S.C.
_HV=1000
_GAIN=80
_LLD=0.550000
_ULD=1.310000
_DETECTORSLIT='unkn'
_AUX1=0.000000
_AUX2=0.000000
_AUX3=0.000000
_TIMESTARTED=14
_ROTATION_SPEED=120
_TEMP_RATE=-1.000000
_TEMP_DELAY=-1.000000
_KV=40
_MA=40
_RANGE_WL=1.540590
_3DPLANE=0
_2THETACOUNTS
  12.0000       301
  12.3740       292
  12.7480       295
  13.1220       268
  13.4960       277
  13.8700       308
  14.2440       266
  14.6180       275
  14.9920       256
  15.3660       257
  15.7400       273
  16.1140       302
  16.4880       254
  16.8620       307
  17.2360       299
  17.6100       292
  17.9840       299
  18.3580       328
  18.7320       329
  19.1060       349
  19.4800       363
  19.8540       362
  20.2280       393
  20.6020       363
  20.9760       382
  21.3500       377
  21.7240       384
  22.0980       384
  22.4720       407
  22.8460       392
  23.2200       385
  23.5940       429
  23.9680       523
  24.3420       454
  24.7160       399
  25.0900       395
  25.4640       399
  25.8380       400
  26.2120       360
  26.5860       363
  26.9600       381
  27.3340       375
  27.7080       367
  28.0820       344
  28.4560       350
  28.8300       342
  29.2040       345
  29.5780       329
  29.9520       336
  30.3260       312
  30.7000       361
  31.0740       313
  31.4480       332
  31.8220       281
  32.1960       302
  32.5700       296
  32.9440       301
  33.3180       320
  33.6920       317
  34.0660       403
  34.4400       350
  34.8140       298
  35.1880       270
  35.5620       268
  35.9360       243
  36.3100       259
  36.6840       260
  37.0580       243
  37.4320       267
  37.8060       278
  38.1800       258
  38.5540       274
  38.9280       244
  39.3020       239
  39.6760       240
  40.0500       243
  40.4240       219
  40.7980       234
  41.1720       234
  41.5460       349
  41.9200      1472
  42.2940       434
  42.6680       236
  43.0420       274
  43.4160       250
  43.7900       268
  44.1640       215
  44.5380       237
  44.9120       239
  45.2860       229
  45.6600       236
  46.0340       217
  46.4080       250
  46.7820       239
  47.1560       219
  47.5300       239
  47.9040       277
  48.2780       385
  48.6520       753
  49.0260       479
  49.4000       284
  49.7740       234
  50.1480       238
  50.5220       232
  50.8960       212
  51.2700       217
  51.6440       223
  52.0180       183
  52.3920       219
  52.7660       214
  53.1400       237
  53.5140       232
  53.8880       214
  54.2620       240
  54.6360       246
  55.0100       332
  55.3840       233
  55.7580       202
  56.1320       211
  56.5060       211
  56.8800       228
  57.2540       196
  57.6280       228
  58.0020       211
  58.3760       208
  58.7500       247
  59.1240       233
  59.4980       196
  59.8720       225
  60.2460       264
  60.6200       310
  60.9940       263
  61.3680       223
  61.7420       220
  62.1160       230
  62.4900       220
  62.8640       239
  63.2380       203
  63.6120       217
  63.9860       245
  64.3600       217
  64.7340       243
  65.1080       251
  65.4820       218
  65.8560       223
  66.2300       197
  66.6040       240
  66.9780       245
  67.3520       215
  67.7260       223
  68.1000       231
  68.4740       252
  68.8480       255
  69.2220       227
  69.5960       235
  69.9700       228
  70.3440       235
  70.7180       274
  71.0920       443
  71.4660       547
  71.8400       267
  72.2140       208
  72.5880       232
  72.9620       230
  73.3360       226
  73.7100       256
  74.0840       218
  74.4580       231
  74.8320       239
  75.2060       213
  75.5800       211
  75.9540       224
  76.3280       263
  76.7020       260
  77.0760       194
  77.4500       226
  77.8240       255
  78.1980       210
  78.5720       224
  78.9460       233
  79.3200       226
  79.6940       207
  80.0680       223
  80.4420       238
  80.8160       240
  81.1900       238
  81.5640       224
  81.9380       226
  82.3120       209
  82.6860       218
  83.0600       195
  83.4340       195
  83.8080       216
  84.1820       200
  84.5560       217
  84.9300       218
  85.3040       232
  85.6780       362
  86.0520       564
  86.4260       414
  86.8000       263
  87.1740       223
  87.5480       212
  87.9220       219
  88.2960       215
  88.6700       219
  89.0440       199
  89.4180       200
  89.7920       213
  90.1660       249
  90.5400       222
  90.9140       322
  91.2880       259
  91.6620       232
  92.0360       207
  92.4100       192
  92.7840       228
  93.1580       190
  93.5320       202
  93.9060       198
  94.2800       209
  94.6540       214
  95.0280       214
  95.4020       227
  95.7760       224
  96.1500       219
  96.5240       210
  96.8980       198
  97.2720       215
  97.6460       204
  98.0200       205
  98.3940       219
  98.7680       217
  99.1420       196
  99.5160       234
  99.8900       224
 100.2640       264
 100.6380       248
 101.0120       246
 101.3860       219
 101.7600       229
 102.1340       216
 102.5080       191
 102.8820       231
 103.2560       214
 103.6300       209
 104.0040       219
 104.3780       220
 104.7520       215
 105.1260       235
 105.5000       210
 105.8740       206
 106.2480       233
 106.6220       207
 106.9960       226
 107.3700       213
 107.7440       237
 108.1180       207
 108.4920       199
 108.8660       190
 109.2400       213
 109.6140       225
 109.9880       243
 110.3620       259
 110.7360       260
 111.1100       249
 111.4840       254
 111.8580       237
 112.2320       243
 112.6060       239
 112.9800       210
 113.3540       207
 113.7280       220
 114.1020       236
 114.4760       219
 114.8500       244
 115.2240       263
 115.5980       219
 115.9720       260
 116.3460       265
 116.7200       249
 117.0940       236
 117.4680       231
 117.8420       224
 118.2160       209
 118.5900       236
 118.9640       239
 119.3380       228
 119.7120       233
 120.0860       260
 120.4600       244
 120.8340       242
 121.2080       239
 121.5820       292
 121.9560       234
 122.0000       246

File: probe2.UXD
; C:\Data\Froehlich\Praktikum\faber\probe2.raw(Diffrac Plus V1.01 file) converted by XCH V1.0
_FILEVERSION=2
_SAMPLE='probe2'
_SITE='II. Physikalisches Institut'
_ATTACHMENTS_CODE=0
_GONIOMETER_RADIUS=200.5
_FIXED_DIVSLIT=2.000000
_FIXED_SAMPLESLIT=1.000000
_FIXED_DETSLIT=0.200000
_MONOCHROMATOR=0
; None
_THIN_FILM='N'
_BETA_FILTER='Y'
_FIXED_ANTISLIT=2.000000
_ANALYZER_CODE=0
; None
_DATEMEASURED='12-Nov-2015 16:55:34'
_WL_UNIT='A'
_WL1=1.540590
_WL2=1.544430
_WL3=1.392230
_WLRATIO=0.520000
_ANODE='Cu'
; (Data for Range number 1)
_DRIVE='COUPLED'
_STEPTIME=2.000000
_STEPSIZE=0.022000
_STEPMODE='C'
_START=12
_THETA=6.000000
_2THETA=12
_KHI=0.000000
_PHI=0.000000
_X=0.000000
_Y=0.000000
_Z=0.000000
_DIVERGENCE=0.000000
_ANTISCATTER=0.000000
_DETECTOR=1
; S.C.
_HV=1000
_GAIN=80
_LLD=0.550000
_ULD=1.310000
_DETECTORSLIT='unkn'
_AUX1=0.000000
_AUX2=0.000000
_AUX3=0.000000
_TIMESTARTED=13
_ROTATION_SPEED=120
_TEMP_RATE=-1.000000
_TEMP_DELAY=-1.000000
_KV=40
_MA=40
_RANGE_WL=1.540590
_3DPLANE=0
_2THETACOUNTS
  12.0000       220
  12.3740       232
  12.7480       232
  13.1220       261
  13.4960       215
  13.8700       250
  14.2440       257
  14.6180       243
  14.9920       269
  15.3660       271
  15.7400       278
  16.1140       286
  16.4880       306
  16.8620       277
  17.2360       305
  17.6100       310
  17.9840       301
  18.3580       332
  18.7320       328
  19.1060       320
  19.4800       383
  19.8540       324
  20.2280       355
  20.6020       369
  20.9760       346
  21.3500       372
  21.7240       375
  22.0980       392
  22.4720       418
  22.8460       420
  23.2200       432
  23.5940       504
  23.9680       516
  24.3420       454
  24.7160       429
  25.0900       426
  25.4640       447
  25.8380       456
  26.2120       437
  26.5860       414
  26.9600       436
  27.3340       360
  27.7080       375
  28.0820       433
  28.4560       415
  28.8300       409
  29.2040       390
  29.5780       425
  29.9520       421
  30.3260       388
  30.7000       391
  31.0740       427
  31.4480       394
  31.8220       382
  32.1960       407
  32.5700       387
  32.9440       443
  33.3180       474
  33.6920       472
  34.0660       608
  34.4400       464
  34.8140       439
  35.1880       423
  35.5620       402
  35.9360       371
  36.3100       416
  36.6840       349
  37.0580       383
  37.4320       431
  37.8060       445
  38.1800       471
  38.5540       422
  38.9280       390
  39.3020       387
  39.6760       401
  40.0500       403
  40.4240       421
  40.7980       437
  41.1720       599
  41.5460      1604
  41.9200      3079
  42.2940       593
  42.6680       446
  43.0420       422
  43.4160       405
  43.7900       447
  44.1640       394
  44.5380       400
  44.9120       385
  45.2860       380
  45.6600       386
  46.0340       415
  46.4080       410
  46.7820       458
  47.1560       432
  47.5300       474
  47.9040       608
  48.2780      1164
  48.6520      2227
  49.0260       861
  49.4000       510
  49.7740       409
  50.1480       439
  50.5220       400
  50.8960       350
  51.2700       382
  51.6440       342
  52.0180       394
  52.3920       371
  52.7660       404
  53.1400       436
  53.5140       439
  53.8880       409
  54.2620       461
  54.6360       512
  55.0100       520
  55.3840       463
  55.7580       388
  56.1320       441
  56.5060       423
  56.8800       383
  57.2540       392
  57.6280       409
  58.0020       392
  58.3760       410
  58.7500       415
  59.1240       407
  59.4980       404
  59.8720       417
  60.2460       420
  60.6200       531
  60.9940       462
  61.3680       411
  61.7420       431
  62.1160       398
  62.4900       398
  62.8640       408
  63.2380       414
  63.6120       427
  63.9860       397
  64.3600       444
  64.7340       459
  65.1080       432
  65.4820       361
  65.8560       397
  66.2300       395
  66.6040       404
  66.9780       397
  67.3520       412
  67.7260       375
  68.1000       393
  68.4740       396
  68.8480       437
  69.2220       402
  69.5960       446
  69.9700       446
  70.3440       453
  70.7180       557
  71.0920      1251
  71.4660       985
  71.8400       503
  72.2140       449
  72.5880       411
  72.9620       434
  73.3360       422
  73.7100       392
  74.0840       434
  74.4580       420
  74.8320       414
  75.2060       423
  75.5800       476
  75.9540       453
  76.3280       494
  76.7020       484
  77.0760       442
  77.4500       477
  77.8240       427
  78.1980       417
  78.5720       403
  78.9460       431
  79.3200       425
  79.6940       401
  80.0680       414
  80.4420       415
  80.8160       462
  81.1900       439
  81.5640       428
  81.9380       420
  82.3120       443
  82.6860       429
  83.0600       391
  83.4340       402
  83.8080       425
  84.1820       413
  84.5560       433
  84.9300       510
  85.3040       555
  85.6780       736
  86.0520      1074
  86.4260       841
  86.8000       517
  87.1740       466
  87.5480       426
  87.9220       422
  88.2960       392
  88.6700       386
  89.0440       439
  89.4180       452
  89.7920       405
  90.1660       438
  90.5400       464
  90.9140       606
  91.2880       542
  91.6620       443
  92.0360       394
  92.4100       385
  92.7840       382
  93.1580       409
  93.5320       421
  93.9060       410
  94.2800       409
  94.6540       421
  95.0280       411
  95.4020       438
  95.7760       446
  96.1500       458
  96.5240       440
  96.8980       413
  97.2720       403
  97.6460       412
  98.0200       399
  98.3940       439
  98.7680       419
  99.1420       422
  99.5160       393
  99.8900       424
 100.2640       441
 100.6380       521
 101.0120       462
 101.3860       440
 101.7600       440
 102.1340       370
 102.5080       425
 102.8820       410
 103.2560       380
 103.6300       403
 104.0040       369
 104.3780       416
 104.7520       438
 105.1260       364
 105.5000       372
 105.8740       388
 106.2480       414
 106.6220       424
 106.9960       433
 107.3700       374
 107.7440       425
 108.1180       375
 108.4920       414
 108.8660       437
 109.2400       435
 109.6140       418
 109.9880       439
 110.3620       529
 110.7360       495
 111.1100       536
 111.4840       464
 111.8580       425
 112.2320       445
 112.6060       436
 112.9800       417
 113.3540       372
 113.7280       402
 114.1020       417
 114.4760       467
 114.8500       431
 115.2240       480
 115.5980       433
 115.9720       455
 116.3460       460
 116.7200       426
 117.0940       431
 117.4680       451
 117.8420       426
 118.2160       426
 118.5900       467
 118.9640       429
 119.3380       423
 119.7120       433
 120.0860       425
 120.4600       393
 120.8340       465
 121.2080       441
 121.5820       479
 121.9560       444
 122.0000       485

File: probe3.UXD
; C:\Data\Froehlich\Praktikum\faber\probe3.raw(Diffrac Plus V1.01 file) converted by XCH V1.0
_FILEVERSION=2
_SAMPLE='probe3'
_SITE='II. Physikalisches Institut'
_ATTACHMENTS_CODE=0
_GONIOMETER_RADIUS=200.5
_FIXED_DIVSLIT=2.000000
_FIXED_SAMPLESLIT=1.000000
_FIXED_DETSLIT=0.200000
_MONOCHROMATOR=0
; None
_THIN_FILM='N'
_BETA_FILTER='Y'
_FIXED_ANTISLIT=2.000000
_ANALYZER_CODE=0
; None
_DATEMEASURED='12-Nov-2015 14:08:13'
_WL_UNIT='A'
_WL1=1.540590
_WL2=1.544430
_WL3=1.392230
_WLRATIO=0.520000
_ANODE='Cu'
; (Data for Range number 1)
_DRIVE='COUPLED'
_STEPTIME=2.000000
_STEPSIZE=0.022000
_STEPMODE='C'
_START=12
_THETA=6.000000
_2THETA=12
_KHI=0.000000
_PHI=0.000000
_X=0.000000
_Y=0.000000
_Z=0.000000
_DIVERGENCE=0.000000
_ANTISCATTER=0.000000
_DETECTOR=1
; S.C.
_HV=1000
_GAIN=80
_LLD=0.550000
_ULD=1.310000
_DETECTORSLIT='unkn'
_AUX1=0.000000
_AUX2=0.000000
_AUX3=0.000000
_TIMESTARTED=12
_ROTATION_SPEED=120
_TEMP_RATE=-1.000000
_TEMP_DELAY=-1.000000
_KV=40
_MA=40
_RANGE_WL=1.540590
_3DPLANE=0
_2THETACOUNTS
  12.0000       297
  12.3740       275
  12.7480       281
  13.1220       279
  13.4960       256
  13.8700       230
  14.2440       268
  14.6180       273
  14.9920       270
  15.3660       295
  15.7400       275
  16.1140       304
  16.4880       289
  16.8620       305
  17.2360       320
  17.6100       316
  17.9840       331
  18.3580       378
  18.7320       355
  19.1060       347
  19.4800       375
  19.8540       355
  20.2280       407
  20.6020       380
  20.9760       397
  21.3500       425
  21.7240       445
  22.0980       420
  22.4720       416
  22.8460       495
  23.2200       435
  23.5940       448
  23.9680       443
  24.3420       456
  24.7160       439
  25.0900       465
  25.4640       471
  25.8380       455
  26.2120       414
  26.5860       434
  26.9600       485
  27.3340       450
  27.7080       461
  28.0820       481
  28.4560       479
  28.8300       458
  29.2040       453
  29.5780       390
  29.9520       434
  30.3260       411
  30.7000       428
  31.0740       415
  31.4480       430
  31.8220       425
  32.1960       380
  32.5700       408
  32.9440       408
  33.3180       373
  33.6920       451
  34.0660       365
  34.4400       437
  34.8140       379
  35.1880       406
  35.5620       374
  35.9360       390
  36.3100       403
  36.6840       414
  37.0580       382
  37.4320       440
  37.8060       456
  38.1800       439
  38.5540       408
  38.9280       378
  39.3020       399
  39.6760       375
  40.0500       376
  40.4240       420
  40.7980       438
  41.1720       478
  41.5460       939
  41.9200      4301
  42.2940       860
  42.6680       501
  43.0420       444
  43.4160       425
  43.7900       461
  44.1640       416
  44.5380       376
  44.9120       389
  45.2860       393
  45.6600       374
  46.0340       394
  46.4080       400
  46.7820       402
  47.1560       474
  47.5300       446
  47.9040       526
  48.2780       890
  48.6520      2325
  49.0260      1051
  49.4000       522
  49.7740       431
  50.1480       384
  50.5220       391
  50.8960       407
  51.2700       399
  51.6440       401
  52.0180       427
  52.3920       412
  52.7660       391
  53.1400       410
  53.5140       450
  53.8880       365
  54.2620       372
  54.6360       429
  55.0100       386
  55.3840       410
  55.7580       399
  56.1320       394
  56.5060       373
  56.8800       403
  57.2540       382
  57.6280       389
  58.0020       437
  58.3760       406
  58.7500       398
  59.1240       396
  59.4980       411
  59.8720       385
  60.2460       358
  60.6200       390
  60.9940       407
  61.3680       418
  61.7420       417
  62.1160       384
  62.4900       422
  62.8640       365
  63.2380       404
  63.6120       437
  63.9860       417
  64.3600       396
  64.7340       409
  65.1080       403
  65.4820       372
  65.8560       441
  66.2300       384
  66.6040       390
  66.9780       367
  67.3520       384
  67.7260       404
  68.1000       378
  68.4740       426
  68.8480       378
  69.2220       429
  69.5960       421
  69.9700       452
  70.3440       397
  70.7180       539
  71.0920       972
  71.4660       912
  71.8400       505
  72.2140       406
  72.5880       379
  72.9620       411
  73.3360       392
  73.7100       428
  74.0840       437
  74.4580       406
  74.8320       375
  75.2060       423
  75.5800       431
  75.9540       379
  76.3280       424
  76.7020       380
  77.0760       395
  77.4500       351
  77.8240       415
  78.1980       413
  78.5720       414
  78.9460       439
  79.3200       425
  79.6940       422
  80.0680       417
  80.4420       402
  80.8160       434
  81.1900       392
  81.5640       436
  81.9380       426
  82.3120       414
  82.6860       442
  83.0600       419
  83.4340       432
  83.8080       424
  84.1820       403
  84.5560       414
  84.9300       468
  85.3040       525
  85.6780       742
  86.0520      1075
  86.4260       790
  86.8000       527
  87.1740       442
  87.5480       461
  87.9220       438
  88.2960       400
  88.6700       397
  89.0440       403
  89.4180       445
  89.7920       419
  90.1660       442
  90.5400       460
  90.9140       574
  91.2880       504
  91.6620       396
  92.0360       383
  92.4100       421
  92.7840       387
  93.1580       385
  93.5320       394
  93.9060       411
  94.2800       425
  94.6540       400
  95.0280       400
  95.4020       388
  95.7760       375
  96.1500       430
  96.5240       399
  96.8980       413
  97.2720       420
  97.6460       386
  98.0200       425
  98.3940       431
  98.7680       441
  99.1420       381
  99.5160       395
  99.8900       385
 100.2640       404
 100.6380       380
 101.0120       414
 101.3860       379
 101.7600       403
 102.1340       410
 102.5080       380
 102.8820       400
 103.2560       429
 103.6300       381
 104.0040       391
 104.3780       379
 104.7520       410
 105.1260       413
 105.5000       441
 105.8740       383
 106.2480       418
 106.6220       403
 106.9960       429
 107.3700       407
 107.7440       434
 108.1180       452
 108.4920       425
 108.8660       411
 109.2400       447
 109.6140       430
 109.9880       450
 110.3620       508
 110.7360       489
 111.1100       433
 111.4840       455
 111.8580       440
 112.2320       447
 112.6060       424
 112.9800       420
 113.3540       441
 113.7280       427
 114.1020       438
 114.4760       433
 114.8500       451
 115.2240       417
 115.5980       457
 115.9720       415
 116.3460       457
 116.7200       438
 117.0940       459
 117.4680       398
 117.8420       423
 118.2160       438
 118.5900       463
 118.9640       477
 119.3380       414
 119.7120       422
 120.0860       416
 120.4600       418
 120.8340       460
 121.2080       435
 121.5820       448
 121.9560       429
 122.0000       437